File: raman_mos2.txt
raman_shift	intensity
-18.8597	6
-17.7379	9
-16.6162	10
-15.49459	8
-14.3731	8
-13.2532	7
-12.1319	12
-11.0108	8
-9.8912	8
-8.76897	11
-7.64959	10
-6.52896	9
-5.409811	9
-4.288054	14
-3.16914	13
-2.04899	16
-0.930318	32
0.190964	27
1.3094	41
2.42908	43
3.54728	20
4.66672	12
5.78468	8
6.90389	10
8.021615	12
9.14058	12
10.2594	9
11.3782	11
12.49542	10
13.6139	9
14.7309	11
15.8492	8
16.966	10
18.0826	6
19.1992	7
20.317	13
21.4333	8
22.5508	7
23.6669	8
24.7842	10
25.9	7
27.0158	9
28.1314	10
29.2482	8
30.3636	11
31.4802	7
32.5939	8
33.7103	11
34.8252	8
35.9413	9
37.0546	8
38.1705	10
39.2849	8
40.3992	7
41.5134	7
42.6275	9
43.7414	7
44.8566	10
45.96899	10
47.0839	10
48.1961	10
49.3108	11
50.42403	9
51.5372	8
52.6502	11
53.7631	9
54.8758	9
55.9885	7
57.101	10
58.2121	9
59.3258	9
60.4366	10
61.55	11
62.66061	10
63.7724	8
64.8842	11
65.9958	9
67.1072	6
68.2173	11
69.3299	8
70.4396	7
71.5507	9
72.6602	6
73.771	7
74.8816	11
75.9922	11
77.1026	9
78.2116	8
79.32177	9
80.4305	9
81.5405	10
82.6489	10
83.7587	11
84.8683	10
85.9778	10
87.0872	10
88.1951	15
89.3042	13
90.4105	15
91.5194	10
92.6269	12
93.7356	14
94.8441	9
95.95121	15
97.05954	15
98.1664	12
99.27449	13
100.38	10
101.488	10
102.595	12
103.702	11
104.809	12
105.914	13
107.021	14
108.127	13
109.233	11
110.34	14
111.445	11
112.55	15
113.656	16
114.762	15
115.867	15
116.972	20
118.078	20
119.181	17
120.287	23
121.392	27
122.496	27
123.6	26
124.7042	29
125.808	39
126.913	37
128.016	50
129.119	61
130.223	71
131.326	88
132.431	96
133.533	110
134.6356	127
135.739	146
136.841	172
137.944	208
139.047	217
140.149	255
141.25	292
142.352	296
143.456	326
144.556	343
145.658	362
146.76	359
147.86	371
148.963	379
150.063	382
151.1644	379
152.266	370
153.365	377
154.466	368
155.567	359
156.666	352
157.767	347
158.866	336
159.967	338
161.067	324
162.166	323
163.266	317
164.365	308
165.464	310
166.564	310
167.663	310
168.761	305
169.859	311
170.958	307
172.056	306
173.154	307
174.253	307
175.35	317
176.45	302
177.546	310
178.643	314
179.743	335
180.838	337
181.935	348
183.034	341
184.129	333
185.226	342
186.325	345
187.419	332
188.5155	329
189.613	337
190.709	345
191.804	341
192.9	352
193.997	341
195.092	339
196.187	343
197.281	340
198.379	348
199.474	344
200.567	346
201.662	352
202.758	351
203.852	355
204.946	351
206.04	353
207.133	363
208.2272	364
209.324	371
210.416	366
211.51	373
212.603	373
213.695	393
214.789	373
215.882	383
216.974	394
218.066	371
219.162	382
220.253	360
221.346	385
222.438	384
223.531	370
224.622	378
225.7139	371
226.806	368
227.897	358
228.988	346
230.08	337
231.17	332
232.262	316
233.353	306
234.444	291
235.534	284
236.625	290
237.716	279
238.805	269
239.896	270
240.987	272
242.074	276
243.163	260
244.254	264
245.3437	272
246.432	277
247.522	259
248.612	266
249.702	269
250.79	262
251.877	266
252.966	251
254.054	267
255.143	265
256.232	266
257.321	260
258.405	263
259.494	268
260.582	258
261.671	272
262.755	262
263.843	264
264.9314	253
266.018	267
267.103	266
268.191	255
269.278	266
270.365	277
271.449	270
272.537	268
273.624	269
274.707	278
275.794	270
276.881	268
277.9646	285
279.05	261
280.136	273
281.22	283
282.306	274
283.391	282
284.474	295
285.56	293
286.643	299
287.728	303
288.813	300
289.896	292
290.982	295
292.064	307
293.148	301
294.23	305
295.315	322
296.399	322
297.481	313
298.565	318
299.647	320
300.731	341
301.811	334
302.896	330
303.977	343
305.058	350
306.141	348
307.222	339
308.305	335
309.386	331
310.469	336
311.548	348
312.632	329
313.712	345
314.792	347
315.8735	360
316.953	335
318.033	342
319.116	345
320.195	337
321.276	354
322.356	338
323.435	339
324.517	348
325.596	348
326.674	343
327.755	354
328.834	371
329.913	350
330.991	378
332.071	381
333.149	377
334.227	386
335.305	391
336.386	423
337.463	427
338.54	418
339.618	439
340.698	457
341.7756	474
342.852	497
343.929	531
345.006	516
346.083	555
347.162	574
348.239	578
349.314	575
350.391	586
351.467	582
352.544	587
353.62	611
354.697	598
355.773	634
356.849	664
357.9248	694
359	705
360.076	704
361.15	728
362.225	701
363.301	683
364.376	686
365.451	683
366.525	704
367.599	705
368.673	718
369.748	752
370.822	792
371.897	779
372.971	821
374.044	869
375.118	933
376.1915	987
377.265	1130
378.339	1388
379.412	1831
380.486	2644
381.5578	3532
382.631	3700
383.701	3024
384.774	2060
385.847	1318
386.92	954
387.993	826
389.064	766
390.136	755
391.206	760
392.278	832
393.35	890
394.422	977
395.494	1118
396.564	1296
397.633	1605
398.705	1992
399.776	2555
400.848	3310
401.916	4238
402.9874	5165
404.058	5813
405.1279	5780
406.196	5188
407.267	4227
408.337	3322
409.408	2593
410.475	2060
411.546	1729
412.616	1467
413.682	1290
414.752	1126
415.821	996
416.888	891
417.958	820
419.027	781
420.094	744
421.163	733
422.23	713
423.297	712
424.366	705
425.432	688
426.501	698
427.567	685
428.635	720
429.701	694
430.769	696
431.837	707
432.903	713
433.969	696
435.035	718
436.102	744
437.167	751
438.235	725
439.299	737
440.367	749
441.431	764
442.495	762
443.562	775
444.627	753
445.692	740
446.756	746
447.822	732
448.886	723
449.95	703
451.016	696
452.079	668
453.145	652
454.208	633
455.271	607
456.337	581
457.4	593
458.463	538
459.527	535
460.589	503
461.651	489
462.716	456
463.779	436
464.841	399
465.905	379
466.967	340
468.029	316
469.091	308
470.155	272
471.216	264
472.278	250
473.339	241
474.4025	238
475.4635	254
476.5231	242
477.584	248
478.645	244
479.705	251
480.768	246
481.829	257
482.889	256
483.949	252
485.009	259
486.069	273
487.131	271
488.191	270
489.251	281
490.31	283
491.369	303
492.429	301
493.488	299
494.547	302
495.606	319
496.665	317
497.723	312
498.782	325
499.84	334
500.8989	346
501.957	358
503.015	379
504.073	385
505.131	426
506.189	454
507.247	494
508.303	553
509.361	594
510.418	677
511.476	781
512.533	940
513.59	1159
514.647	1482
515.704	1936
516.7605	2747
517.817	3856
518.874	5294
519.928	6234
520.984	6231
522.0401	5297
523.096	4065
524.152	2976
525.208	2258
526.261	1751
527.317	1390
528.373	1184
529.4281	1010
530.483	898
531.5387	806
532.591	751
533.6463	670
534.701	646
535.756	600
536.808	605
537.863	556
538.9173	528
539.972	502
541.023	511
542.078	468
543.132	494
544.183	485
545.237	483
546.291	468
547.343	466
548.396	459
549.45	467
550.501	460
551.554	453
552.607	433
553.657	458
554.71	457
555.76	444
556.813	443
557.8656	454
558.915	457
559.968	462
561.017	471
562.07	462
563.119	466
564.171	457
565.22	450
566.272	446
567.323	433
568.372	436
569.424	415
570.472	414
571.521	408
572.572	413
573.62	406
574.671	399
575.721	406
576.771	395
577.819	393
578.87	394
579.917	394
580.965	404
582.015	402
583.063	395
584.112	387
585.16	392
586.207	384
587.256	391
588.303	388
589.35	389
590.399	387
591.446	377
592.493	387
593.542	374
594.589	383
595.6347	379
596.683	371
597.729	362
598.775	352
599.821	355
600.8689	333
601.914	328
602.96	335
604.005	325
605.053	313
606.098	331
607.144	327
608.1889	320
609.234	314
610.281	317
611.325	321
612.37	320
613.414	322
614.458	308
615.502	316
616.549	311
617.5929	311
618.638	310
619.682	306
620.725	295
621.769	303
622.812	301
623.855	289
624.898	283
625.941	288
626.984	284
628.03	265
629.074	268
630.116	266
631.159	268
632.201	255
633.244	258
634.286	249
635.328	247
636.37	241
637.412	238
638.455	235
639.4939	234
640.535	227
641.5769	224
642.618	219
643.659	211
644.701	201
645.743	214
646.784	199
647.825	207
648.865	201
649.906	193
650.944	192
651.984	194
653.0246	192
654.0661	195
655.106	194
656.146	190
657.183	203
658.223	195
659.263	195
660.302	188
661.342	187
662.38	193
663.419	195
664.458	205
665.497	203
666.534	205
667.572	208
668.612	221
669.651	207
670.687	213
671.725	220
672.764	220
673.799	227
674.839	221
675.877	217
676.912	215
677.95	215
678.9873	212
680.022	221
681.06	217
682.098	212
683.133	225
684.17	226
685.205	219
686.242	230
687.278	233
688.314	236
689.3504	231
690.384	237
691.421	243
692.454	241
693.492	253
694.525	250
695.561	250
696.595	247
697.63	252
698.664	249
699.7	252
700.733	256
701.769	254
702.801	241
703.837	241
704.8703	249
705.905	236
706.9375	243
707.97	245
709.004	222
710.037	227
711.0719	232
712.104	241
713.135	241
714.169	245
715.202	242
716.236	246
717.267	237
718.298	247
719.332	254
720.364	257
721.3949	251
722.4256	248
723.459	253
724.489	258
725.521	260
726.554	264
727.584	262
728.614	273
729.644	270
730.678	268
731.707	279
732.737	282
733.767	273
734.797	291
735.829	291
736.859	293
737.8877	304
738.917	320
739.947	315
740.976	318
742.007	326
743.036	336
744.065	346
745.094	364
746.122	361
747.15	363
748.18	372
749.208	381
750.238	378
751.266	371
752.294	378
753.323	371
754.3501	366
755.3775	363
756.405	362
757.433	343
758.46	338
759.487	316
760.5141	318
761.542	303
762.569	301
763.595	284
764.622	284
765.649	275
766.676	258
767.702	259
768.728	240
769.7525	239
770.778	233
771.804	239
772.831	240
773.857	256
774.8819	256
775.907	254
776.934	249
777.9588	253
778.981	250
780.006	251
781.032	247
782.057	241
783.082	233
784.1048	242
785.129	224
786.153	231
787.178	230
788.203	220
789.224	224
790.248	215
791.273	216
792.297	208
793.318	212
794.341	202
795.366	211
796.389	194
797.41	208
798.434	213
799.457	207
800.478	207
801.5	214
802.524	211
803.544	207
804.567	212
805.59	226
806.61	226
807.632	241
808.653	242
809.675	241
810.697	247
811.717	246
812.739	257
813.758	272
814.779	263
815.799	267
816.82	262
817.839	270
818.861	261
819.882	270
820.9	263
821.922	248
822.94	242
823.961	245
824.98	236
825.998	234
827.018	216
828.037	213
829.057	203
830.074	201
831.094	198
832.112	184
833.129	194
834.15	189
835.167	181
836.186	170
837.2038	171
838.22	167
839.239	164
840.2569	166
841.273	170
842.292	173
843.309	168
844.325	166
845.343	161
846.36	158
847.376	161
848.394	153
849.411	153
850.4259	163
851.4411	161
852.46	162
853.475	161
854.49	156
855.506	152
856.523	157
857.538	161
858.554	145
859.568	151
860.5835	152
861.6	152
862.614	163
863.63	165
864.643	153
865.657	157
866.672	143
867.686	152
868.702	151
869.716	150
870.73	150
871.744	155
872.757	153
873.77	153
874.784	146
875.797	150
876.811	155
877.824	151
878.836	150
879.85	163
880.862	149
881.875	148
882.887	141
883.899	159
884.912	147
885.924	150
886.936	153
887.949	150
888.96	148
889.973	156
890.984	157
891.995	155
893.008	164
894.018	153
895.031	153
896.041	160
897.049	156
898.061	163
899.072	163
900.083	163
901.094	156
902.1037	157
903.115	165
904.122	159
905.134	162
906.143	163
907.154	157
908.1637	157
909.171	167
910.181	169
911.19	168
912.201	164
913.2074	166
914.216	172
915.226	162
916.235	163
917.243	166
918.2511	175
919.2608	171
920.2666	169
921.275	170
922.284	176
923.29	173
924.299	173
925.307	182
926.313	178
927.321	183
928.328	196
929.335	192
930.342	200
931.348	207
932.355	213
933.363	222
934.3678	236
935.376	244
936.38	246
937.388	258
938.392	249
939.398	282
940.4035	287
941.41	303
942.415	295
943.421	298
944.425	296
945.431	299
946.436	299
947.441	299
948.446	285
949.451	306
950.455	302
951.46	307
952.463	307
953.467	306
954.472	313
955.475	313
956.48	308
957.483	317
958.485	304
959.491	312
960.493	319
961.496	307
962.5	321
963.503	313
964.504	318
965.509	309
966.5105	313
967.513	325
968.516	321
969.519	335
970.519	318
971.521	321
972.5246	335
973.526	327
974.527	331
975.528	323
976.531	341
977.531	317
978.533	342
979.534	333
980.534	342
981.536	339
982.537	346
983.536	337
984.537	324
985.5376	333
986.537	314
987.537	320
988.539	306
989.538	283
990.538	271
991.538	270
992.5365	250
993.536	252
994.535	226
995.534	232
996.533	220
997.532	216
998.53	214
999.529	202
1000.53	189
1001.53	198
1002.52	196
1003.52	185
1004.52	181
1005.52	185
1006.52	170
1007.51	180
1008.51	174
1009.51	174
1010.51	175
1011.5	165
1012.5	163
1013.5	170
1014.5	150
1015.49	152
1016.49	156
1017.48	154
1018.48	157
1019.48	151
1020.475	145
1021.47	153
1022.47	145
1023.46	143
1024.46	139
1025.45	136
1026.45	128
1027.44	146
1028.44	137
1029.43	138
1030.43	120
1031.43	126
1032.42	125
1033.41	127
1034.41	119
1035.4	125
1036.4	121
1037.39	122
1038.39	115
1039.38	119
1040.37	110
1041.37	107
1042.36	105
1043.35	112
1044.35	112
1045.34	109
1046.335	116
1047.33	106
1048.32	103
1049.31	97
1050.3	102
1051.3	104
1052.29	102
1053.28	108
1054.27	101
1055.27	103
1056.26	107
1057.25	102
1058.24	106
1059.23	103
1060.23	103